STUDYID,DOMAIN,USUBJID,AETERM,AEDECOD,AEBODSYS,AESEV,AESER,AEREL,AEOUT,AESTDTC,AEENDTC
STUDY001,AE,STUDY001-SITE001-0009,Headache,Pyrexia,Skin,MILD,N,NOT RELATED,RECOVERED/RESOLVED,2024-11-01,2024-10-01
STUDY001,AE,STUDY001-SITE001-0004,Vomiting,Headache,Gastrointestinal,CRITICAL,N,PROBABLE,RECOVERED/RESOLVED,2024-10-16,2024-11-02
STUDY001,AE,STUDY001-SITE001-0008,Pyrexia,Cough,Nervous system,MODERATE,N,DEFINITE,RECOVERED/RESOLVED,,2024-10-24
STUDY001,AE,STUDY001-SITE001-0016,Back pain,Insomnia,Metabolism,MILD,Y,NOT RELATED,FATAL,2024-06-26,2024-07-19
STUDY001,AE,STUDY001-SITE001-0017,Fatigue,Dizziness,General,MODERATE,N,NOT RELATED,RECOVERED/RESOLVED,2024-11-15,2024-12-10
STUDY001,AE,STUDY001-SITE001-0011,Diarrhea,Thrombocytopenia,Nervous system,MILD,N,PROBABLE,RECOVERING/RESOLVING,2024-12-22,2025-01-03
STUDY001,AE,STUDY001-SITE001-0003,Fatigue,Hypertension,Nervous system,MILD,Y,PROBABLE,RECOVERING/RESOLVING,2024-07-18,2024-08-13
STUDY001,AE,STUDY001-SITE001-0003,Leukopenia,Hypokalemia,Gastrointestinal,MILD,N,PROBABLE,UNKNOWN,2024-09-08,2024-09-19
STUDY001,AE,STUDY001-SITE001-0003,Back pain,Dizziness,Gastrointestinal,MODERATE,Y,POSSIBLE,RECOVERED/RESOLVED WITH SEQUELAE,2024-06-05,2024-06-08
STUDY001,AE,STUDY001-SITE001-0015,Leukopenia,Fatigue,Metabolism,MILD,N,NOT RELATED,UNKNOWN,2024-01-08,2024-02-05
STUDY001,AE,STUDY001-SITE001-0003,Fatigue,Anemia,General,MILD,N,POSSIBLE,FATAL,2024-03-05,2024-03-22
STUDY001,AE,STUDY001-SITE001-0018,Cough,Vomiting,Skin,SEVERE,Y,NOT RELATED,RECOVERED/RESOLVED WITH SEQUELAE,2024-09-03,2024-10-02
STUDY001,AE,STUDY001-SITE001-0017,Thrombocytopenia,Nausea,Skin,SEVERE,N,PROBABLE,RECOVERED/RESOLVED,2024-12-01,2024-12-24
STUDY001,AE,STUDY001-SITE001-0016,Arthralgia,Anemia,Gastrointestinal,SEVERE,N,NOT RELATED,UNKNOWN,2024-03-13,2024-04-10
STUDY001,AE,STUDY001-SITE001-0005,Rash,Hypokalemia,Metabolism,MILD,N,POSSIBLE,RECOVERED/RESOLVED,2024-06-24,2024-07-16
STUDY001,AE,STUDY001-SITE001-0012,Hypertension,Nausea,Blood,MILD,Y,NOT RELATED,RECOVERED/RESOLVED,2024-04-16,2024-04-21
STUDY001,AE,STUDY001-SITE001-0017,Constipation,Insomnia,Metabolism,MODERATE,N,POSSIBLE,RECOVERED/RESOLVED WITH SEQUELAE,2024-10-24,2024-10-26
STUDY001,AE,STUDY001-SITE001-0010,Diarrhea,AST increased,Skin,MILD,N,PROBABLE,RECOVERING/RESOLVING,2024-09-17,2024-10-09
STUDY001,AE,STUDY001-SITE001-0003,Dizziness,AST increased,General,MODERATE,N,NOT RELATED,NOT RECOVERED/NOT RESOLVED,2024-12-27,2025-01-02
STUDY001,AE,STUDY001-SITE001-0013,Back pain,Constipation,Gastrointestinal,MILD,Y,PROBABLE,FATAL,2024-07-25,2024-07-30
STUDY001,AE,STUDY001-SITE001-0005,AST increased,Dizziness,Blood,MODERATE,N,POSSIBLE,UNKNOWN,2024-09-03,2024-09-24
STUDY001,AE,STUDY001-SITE001-0002,Vomiting,ALT increased,Blood,MODERATE,N,NOT RELATED,RECOVERING/RESOLVING,2024-08-27,2024-09-25
STUDY001,AE,STUDY001-SITE001-0014,Pyrexia,Dizziness,Gastrointestinal,MILD,Y,NOT RELATED,FATAL,2024-11-13,2024-12-11
STUDY001,AE,STUDY001-SITE001-0020,Nausea,ALT increased,Metabolism,MILD,N,PROBABLE,UNKNOWN,2024-07-20,2024-07-25
STUDY001,AE,STUDY001-SITE001-0005,Diarrhea,Vomiting,Blood,MILD,N,NOT RELATED,RECOVERING/RESOLVING,2024-08-05,2024-08-08
STUDY001,AE,STUDY001-SITE001-0005,Back pain,Headache,Skin,MILD,N,PROBABLE,NOT RECOVERED/NOT RESOLVED,2024-04-19,2024-05-04
STUDY001,AE,STUDY001-SITE001-0004,Headache,Back pain,Blood,MILD,N,PROBABLE,UNKNOWN,2024-10-12,2024-10-20
STUDY001,AE,STUDY001-SITE001-0008,Dizziness,Fatigue,Skin,MODERATE,N,POSSIBLE,FATAL,2024-07-15,2024-07-17
STUDY001,AE,STUDY001-SITE001-0018,Hypokalemia,Hypertension,Metabolism,SEVERE,N,NOT RELATED,NOT RECOVERED/NOT RESOLVED,2024-10-15,2024-10-25
STUDY001,AE,STUDY001-SITE001-0016,Rash,AST increased,Metabolism,SEVERE,Y,POSSIBLE,RECOVERED/RESOLVED WITH SEQUELAE,2024-07-24,2024-08-21
STUDY001,AE,STUDY001-SITE001-0002,AST increased,Diarrhea,General,MILD,N,POSSIBLE,NOT RECOVERED/NOT RESOLVED,2024-03-16,2024-04-05
STUDY001,AE,STUDY001-SITE001-0015,Rash,ALT increased,Blood,SEVERE,N,POSSIBLE,NOT RECOVERED/NOT RESOLVED,2024-05-04,2024-05-20
STUDY001,AE,STUDY001-SITE001-0008,Fatigue,Back pain,Skin,MILD,N,NOT RELATED,FATAL,2024-11-08,2024-12-06
STUDY001,AE,STUDY001-SITE001-0017,Cough,Vomiting,General,MILD,Y,NOT RELATED,RECOVERED/RESOLVED WITH SEQUELAE,2024-01-02,2024-01-06
STUDY001,AE,STUDY001-SITE001-0003,Thrombocytopenia,ALT increased,Metabolism,SEVERE,N,PROBABLE,FATAL,2024-03-21,2024-04-17
STUDY001,AE,STUDY001-SITE001-0010,Thrombocytopenia,Dizziness,Nervous system,MILD,N,NOT RELATED,RECOVERED/RESOLVED WITH SEQUELAE,2024-01-15,2024-02-07
STUDY001,AE,STUDY001-SITE001-0020,Diarrhea,Leukopenia,General,MILD,N,POSSIBLE,UNKNOWN,2024-04-09,2024-05-06
STUDY001,AE,STUDY001-SITE001-0003,Hypertension,Pyrexia,Nervous system,SEVERE,N,PROBABLE,RECOVERED/RESOLVED WITH SEQUELAE,2024-04-13,2024-05-12
STUDY001,AE,STUDY001-SITE001-0015,Diarrhea,Arthralgia,Nervous system,DEATH,N,PROBABLE,RECOVERING/RESOLVING,2024-12-21,2025-01-15
STUDY001,AE,STUDY001-SITE001-0018,Constipation,Hypertension,Gastrointestinal,MILD,Y,POSSIBLE,RECOVERING/RESOLVING,2024-06-09,2024-06-25
STUDY001,AE,STUDY001-SITE001-0017,Arthralgia,Pyrexia,Metabolism,MILD,N,NOT RELATED,RECOVERED/RESOLVED WITH SEQUELAE,2024-03-12,2024-04-03
STUDY001,AE,STUDY001-SITE001-0016,Hypokalemia,Diarrhea,Metabolism,SEVERE,N,PROBABLE,UNKNOWN,2024-08-05,2024-08-23
STUDY001,AE,STUDY001-SITE001-0008,Dizziness,Hypokalemia,Blood,MILD,N,DEFINITE,RECOVERING/RESOLVING,2024-07-20,2024-08-07
STUDY001,AE,STUDY001-SITE001-0014,Hypokalemia,Thrombocytopenia,Metabolism,MILD,N,DEFINITE,RECOVERED/RESOLVED WITH SEQUELAE,2024-12-07,2024-12-25
STUDY001,AE,STUDY001-SITE001-0007,ALT increased,AST increased,Nervous system,SEVERE,N,NOT RELATED,NOT RECOVERED/NOT RESOLVED,2024-04-02,2024-04-14
STUDY001,AE,STUDY001-SITE001-0013,Vomiting,ALT increased,Nervous system,MILD,N,POSSIBLE,RECOVERED/RESOLVED WITH SEQUELAE,2024-03-21,2024-04-19
STUDY001,AE,STUDY001-SITE001-0019,Hypertension,Nausea,Skin,SEVERE,N,NOT RELATED,UNKNOWN,2024-04-14,2024-05-07
STUDY001,AE,STUDY001-SITE001-0001,Vomiting,Back pain,Nervous system,MILD,N,NOT RELATED,UNKNOWN,2024-01-23,2024-01-30
STUDY001,AE,STUDY001-SITE001-0003,Fatigue,Pyrexia,Metabolism,MILD,Y,POSSIBLE,RECOVERED/RESOLVED,2024-10-08,2024-11-03
STUDY001,AE,STUDY001-SITE001-0011,Thrombocytopenia,Thrombocytopenia,Gastrointestinal,MILD,N,NOT RELATED,RECOVERING/RESOLVING,2024-08-20,2024-09-15
STUDY001,AE,STUDY001-SITE001-0018,Pyrexia,Hypokalemia,Blood,MILD,N,DEFINITE,FATAL,2024-12-19,2025-01-08
STUDY001,AE,STUDY001-SITE001-0009,AST increased,Hypokalemia,Skin,SEVERE,Y,PROBABLE,NOT RECOVERED/NOT RESOLVED,2024-12-07,2024-12-11
STUDY001,AE,STUDY001-SITE001-0014,Vomiting,Rash,Blood,MODERATE,N,POSSIBLE,RECOVERED/RESOLVED WITH SEQUELAE,2024-02-17,2024-02-19
STUDY001,AE,STUDY001-SITE001-0011,Pyrexia,Back pain,General,MILD,N,NOT RELATED,RECOVERING/RESOLVING,2024-07-13,2024-08-04
STUDY001,AE,STUDY001-SITE001-0018,Fatigue,Hypertension,Metabolism,MILD,N,NOT RELATED,UNKNOWN,2024-09-04,2024-10-01
STUDY001,AE,STUDY001-SITE001-0005,Back pain,Thrombocytopenia,Nervous system,MILD,N,POSSIBLE,RECOVERING/RESOLVING,2024-11-21,2024-12-20
STUDY001,AE,STUDY001-SITE001-0019,Insomnia,Thrombocytopenia,Gastrointestinal,MILD,N,POSSIBLE,UNKNOWN,2024-01-06,2024-01-25
STUDY001,AE,STUDY001-SITE001-0009,Insomnia,ALT increased,Blood,SEVERE,Y,POSSIBLE,RECOVERED/RESOLVED,2024-02-04,2024-03-02
STUDY001,AE,STUDY001-SITE001-0020,Pyrexia,Fatigue,Nervous system,MODERATE,N,POSSIBLE,NOT RECOVERED/NOT RESOLVED,2024-01-07,2024-01-20
STUDY001,AE,STUDY001-SITE001-0015,AST increased,Dizziness,Skin,MODERATE,N,NOT RELATED,NOT RECOVERED/NOT RESOLVED,2024-01-09,2024-01-21
