STUDYID,DOMAIN,USUBJID,SUBJID,SITEID,AGE,AGEU,SEX,RACE,ETHNIC,ARM,COUNTRY,RFSTDTC,RFENDTC,WEIGHT,HEIGHT,BMI
STUDY001,DM,STUDY001-SITE003-0001,0001,SITE002,,YEARS,M,WHITE,NOT HISPANIC OR LATINO,PLACEBO,CHN,2024-03-26,2024-05-26,66.3,174.1,21.9
STUDY001,DM,STUDY001-SITE001-0002,0002,SITE003,34.0,YEARS,,ASIAN,HISPANIC OR LATINO,TREATMENT_10MG,CHN,2024-03-19,2024-07-12,44.8,148.6,20.3
STUDY001,DM,STUDY001-SITE003-0003,0003,SITE002,53.0,YEARS,M,,NOT HISPANIC OR LATINO,TREATMENT_10MG,CHN,2024-04-07,2024-06-26,69.8,171.4,23.8
STUDY001,DM,STUDY001-SITE003-0004,0004,SITE002,67.0,YEARS,F,ASIAN,NOT HISPANIC OR LATINO,PLACEBO,CHN,2024/01/15,2024-07-10,67.8,168.5,23.9
STUDY001,DM,STUDY001-SITE001-0005,0005,SITE003,57.0,YEARS,M,ASIAN,NOT HISPANIC OR LATINO,PLACEBO,CHN,2024-01-08,15-03-2024,52.0,165.8,18.9
STUDY001,DM,STUDY001-SITE001-0006,0006,SITE002,999.0,YEARS,F,WHITE,NOT HISPANIC OR LATINO,TREATMENT_10MG,CHN,2024-07-18,2025-01-13,67.7,163.2,25.4
STUDY001,DM,STUDY001-SITE003-0007,0007,SITE003,19.0,YEARS,F,WHITE,NOT HISPANIC OR LATINO,TREATMENT_10MG,CHN,2024-08-01,2024-10-27,550.0,161.9,32.1
STUDY001,DM,STUDY001-SITE002-0008,0008,SITE003,23.0,YEARS,F,BLACK OR AFRICAN AMERICAN,NOT HISPANIC OR LATINO,PLACEBO,CHN,2024-11-25,2025-02-20,59.2,15.0,23.2
STUDY001,DM,STUDY001-SITE003-0009,0009,SITE001,71.0,YEARS,M,ASIAN,NOT HISPANIC OR LATINO,PLACEBO,CHN,2024-09-18,2025-01-11,56.5,144.8,999.9
STUDY001,DM,STUDY001-SITE003-0010,0010,SITE003,59.0,YEARS,Unknown,ASIAN,NOT HISPANIC OR LATINO,TREATMENT_20MG,CHN,2024-07-10,2024-09-26,81.3,165.3,29.8
STUDY001,DM,STUDY001-SITE003-0011,0011,SITE001,21.0,YEARS,M,Martian,NOT HISPANIC OR LATINO,PLACEBO,CHN,2024-03-07,2024-06-14,75.6,179.0,23.6
STUDY001,DM,STUDY001-SITE003-0012,0012,SITE003,71.0,YEARS,M,WHITE,NOT HISPANIC OR LATINO,PLACEBO,CHN,2024-12-01,2024-06-01,104.7,164.6,38.6
STUDY001,DM,invalid-usubjid-格式错误,0013,SITE003,46.0,YEARS,M,ASIAN,NOT HISPANIC OR LATINO,TREATMENT_10MG,CHN,2024-10-16,2025-01-07,52.2,174.4,17.2
STUDY001,DM,STUDY001-SITE01,0014,SITE001,35.0,YEARS,M,WHITE,NOT HISPANIC OR LATINO,TREATMENT_20MG,CHN,2024-09-20,2025-01-28,76.6,157.2,31.0
STUDY001,DM,STUDY001-SITE002-0015,0015,SITE001,43.0,YEARS,M,ASIAN,NOT HISPANIC OR LATINO,PLACEBO,CHN,2024-12-17,2025-01-23,71.8,154.9,29.9
STUDY001,DM,STUDY001-SITE001-0016,0016,SITE003,-5.0,YEARS,M,ASIAN,NOT HISPANIC OR LATINO,TREATMENT_20MG,CHN,2024-02-01,2024-04-23,68.7,160.5,26.7
STUDY001,DM,STUDY001-SITE002-0017,0017,SITE002,51.0,YEARS,F,ASIAN,NOT HISPANIC OR LATINO,TREATMENT_20MG,CHN,2024-12-05,2025-03-04,78.9,157.7,31.7
STUDY001,DM,STUDY001-SITE002-0018,0018,SITE001,27.0,YEARS,M,ASIAN,NOT HISPANIC OR LATINO,PLACEBO,CHN,2024-05-27,2024-10-11,67.6,156.2,27.7
STUDY001,DM,STUDY001-SITE002-0019,0019,SITE002,53.0,YEARS,M,ASIAN,NOT HISPANIC OR LATINO,TREATMENT_20MG,CHN,2024-07-09,2024-08-12,44.8,172.5,15.1
STUDY001,DM,STUDY001-SITE002-0020,0020,SITE002,31.0,YEARS,M,ASIAN,NOT HISPANIC OR LATINO,TREATMENT_10MG,CHN,2024-09-03,2025-01-13,57.8,185.8,16.7
STUDY001,DM,STUDY001-SITE001-0021,0021,SITE002,48.0,YEARS,M,WHITE,NOT HISPANIC OR LATINO,TREATMENT_10MG,CHN,2024-03-16,2024-04-20,84.4,161.3,32.4
STUDY001,DM,STUDY001-SITE001-0022,0022,SITE001,65.0,YEARS,M,ASIAN,NOT HISPANIC OR LATINO,TREATMENT_10MG,CHN,2024-03-20,2024-08-05,82.1,151.1,36.0
STUDY001,DM,STUDY001-SITE002-0023,0023,SITE002,32.0,YEARS,M,ASIAN,NOT HISPANIC OR LATINO,TREATMENT_10MG,CHN,2024-08-22,2025-01-14,63.5,174.6,20.8
STUDY001,DM,STUDY001-SITE002-0024,0024,SITE001,25.0,YEARS,M,OTHER,HISPANIC OR LATINO,PLACEBO,CHN,2024-08-01,2024-12-02,74.0,153.6,31.4
STUDY001,DM,STUDY001-SITE001-0025,0025,SITE002,31.0,YEARS,M,ASIAN,NOT HISPANIC OR LATINO,TREATMENT_20MG,CHN,2024-08-20,2024-11-04,101.4,156.2,41.6
STUDY001,DM,STUDY001-SITE001-0026,0026,SITE003,40.0,YEARS,F,ASIAN,NOT HISPANIC OR LATINO,TREATMENT_10MG,CHN,2024-11-17,2025-03-25,67.6,172.9,22.6
STUDY001,DM,STUDY001-SITE001-0027,0027,SITE003,74.0,YEARS,F,WHITE,NOT HISPANIC OR LATINO,PLACEBO,CHN,2024-08-04,2024-10-27,67.9,166.3,24.6
STUDY001,DM,STUDY001-SITE003-0028,0028,SITE001,57.0,YEARS,M,ASIAN,NOT HISPANIC OR LATINO,PLACEBO,CHN,2024-06-08,2024-08-28,70.3,161.1,27.1
STUDY001,DM,STUDY001-SITE003-0029,0029,SITE003,38.0,YEARS,F,ASIAN,HISPANIC OR LATINO,TREATMENT_10MG,CHN,2024-04-03,2024-09-23,75.3,168.7,26.5
STUDY001,DM,STUDY001-SITE003-0030,0030,SITE003,33.0,YEARS,M,ASIAN,HISPANIC OR LATINO,TREATMENT_20MG,CHN,2024-09-03,2024-10-15,63.8,163.9,23.7
STUDY001,DM,STUDY001-SITE01-9999,9999,SITE001,43.0,YEARS,M,ASIAN,NOT HISPANIC OR LATINO,PLACEBO,CHN,2024-12-17,2025-01-23,71.8,154.9,29.9
