STUDYID,DOMAIN,USUBJID,SUBJID,SITEID,AGE,AGEU,SEX,RACE,ETHNIC,ARM,COUNTRY,RFSTDTC,RFENDTC,WEIGHT,HEIGHT,BMI,AETERM,AEDECOD,AEBODSYS,AESEV,AESER,AEREL,AEOUT,AESTDTC,AEENDTC,VS_DTC,VSTEST,VSORRESU,VSORRES
STUDY001,DM,STUDY001-SITE003-0001,0001,SITE002,,YEARS,M,WHITE,NOT HISPANIC OR LATINO,PLACEBO,CHN,2024-03-26,2024-05-26,66.3,174.1,21.9,,,,,,,,,,,,,
STUDY001,DM,STUDY001-SITE001-0002,0002,SITE003,34.0,YEARS,,ASIAN,HISPANIC OR LATINO,TREATMENT_10MG,CHN,2024-03-19,2024-07-12,44.8,148.6,20.3,,,,,,,,,,,,,
STUDY001,DM,STUDY001-SITE003-0003,0003,SITE002,53.0,YEARS,M,,NOT HISPANIC OR LATINO,TREATMENT_10MG,CHN,2024-04-07,2024-06-26,69.8,171.4,23.8,,,,,,,,,,,,,
STUDY001,DM,STUDY001-SITE003-0004,0004,SITE002,67.0,YEARS,F,ASIAN,NOT HISPANIC OR LATINO,PLACEBO,CHN,2024/01/15,2024-07-10,67.8,168.5,23.9,,,,,,,,,,,,,
STUDY001,DM,STUDY001-SITE001-0005,0005,SITE003,57.0,YEARS,M,ASIAN,NOT HISPANIC OR LATINO,PLACEBO,CHN,2024-01-08,15-03-2024,52.0,165.8,18.9,,,,,,,,,,,,,
STUDY001,DM,STUDY001-SITE001-0006,0006,SITE002,999.0,YEARS,F,WHITE,NOT HISPANIC OR LATINO,TREATMENT_10MG,CHN,2024-07-18,2025-01-13,67.7,163.2,25.4,,,,,,,,,,,,,
STUDY001,DM,STUDY001-SITE003-0007,0007,SITE003,19.0,YEARS,F,WHITE,NOT HISPANIC OR LATINO,TREATMENT_10MG,CHN,2024-08-01,2024-10-27,550.0,161.9,32.1,,,,,,,,,,,,,
STUDY001,DM,STUDY001-SITE002-0008,0008,SITE003,23.0,YEARS,F,BLACK OR AFRICAN AMERICAN,NOT HISPANIC OR LATINO,PLACEBO,CHN,2024-11-25,2025-02-20,59.2,15.0,23.2,,,,,,,,,,,,,
STUDY001,DM,STUDY001-SITE003-0009,0009,SITE001,71.0,YEARS,M,ASIAN,NOT HISPANIC OR LATINO,PLACEBO,CHN,2024-09-18,2025-01-11,56.5,144.8,999.9,,,,,,,,,,,,,
STUDY001,DM,STUDY001-SITE003-0010,0010,SITE003,59.0,YEARS,Unknown,ASIAN,NOT HISPANIC OR LATINO,TREATMENT_20MG,CHN,2024-07-10,2024-09-26,81.3,165.3,29.8,,,,,,,,,,,,,
STUDY001,DM,STUDY001-SITE003-0011,0011,SITE001,21.0,YEARS,M,Martian,NOT HISPANIC OR LATINO,PLACEBO,CHN,2024-03-07,2024-06-14,75.6,179.0,23.6,,,,,,,,,,,,,
STUDY001,DM,STUDY001-SITE003-0012,0012,SITE003,71.0,YEARS,M,WHITE,NOT HISPANIC OR LATINO,PLACEBO,CHN,2024-12-01,2024-06-01,104.7,164.6,38.6,,,,,,,,,,,,,
STUDY001,DM,invalid-usubjid-格式错误,0013,SITE003,46.0,YEARS,M,ASIAN,NOT HISPANIC OR LATINO,TREATMENT_10MG,CHN,2024-10-16,2025-01-07,52.2,174.4,17.2,,,,,,,,,,,,,
STUDY001,DM,STUDY001-SITE01,0014,SITE001,35.0,YEARS,M,WHITE,NOT HISPANIC OR LATINO,TREATMENT_20MG,CHN,2024-09-20,2025-01-28,76.6,157.2,31.0,,,,,,,,,,,,,
STUDY001,DM,STUDY001-SITE002-0015,0015,SITE001,43.0,YEARS,M,ASIAN,NOT HISPANIC OR LATINO,PLACEBO,CHN,2024-12-17,2025-01-23,71.8,154.9,29.9,,,,,,,,,,,,,
STUDY001,DM,STUDY001-SITE001-0016,0016,SITE003,-5.0,YEARS,M,ASIAN,NOT HISPANIC OR LATINO,TREATMENT_20MG,CHN,2024-02-01,2024-04-23,68.7,160.5,26.7,,,,,,,,,,,,,
STUDY001,DM,STUDY001-SITE002-0017,0017,SITE002,51.0,YEARS,F,ASIAN,NOT HISPANIC OR LATINO,TREATMENT_20MG,CHN,2024-12-05,2025-03-04,78.9,157.7,31.7,,,,,,,,,,,,,
STUDY001,DM,STUDY001-SITE002-0018,0018,SITE001,27.0,YEARS,M,ASIAN,NOT HISPANIC OR LATINO,PLACEBO,CHN,2024-05-27,2024-10-11,67.6,156.2,27.7,,,,,,,,,,,,,
STUDY001,DM,STUDY001-SITE002-0019,0019,SITE002,53.0,YEARS,M,ASIAN,NOT HISPANIC OR LATINO,TREATMENT_20MG,CHN,2024-07-09,2024-08-12,44.8,172.5,15.1,,,,,,,,,,,,,
STUDY001,DM,STUDY001-SITE002-0020,0020,SITE002,31.0,YEARS,M,ASIAN,NOT HISPANIC OR LATINO,TREATMENT_10MG,CHN,2024-09-03,2025-01-13,57.8,185.8,16.7,,,,,,,,,,,,,
STUDY001,DM,STUDY001-SITE001-0021,0021,SITE002,48.0,YEARS,M,WHITE,NOT HISPANIC OR LATINO,TREATMENT_10MG,CHN,2024-03-16,2024-04-20,84.4,161.3,32.4,,,,,,,,,,,,,
STUDY001,DM,STUDY001-SITE001-0022,0022,SITE001,65.0,YEARS,M,ASIAN,NOT HISPANIC OR LATINO,TREATMENT_10MG,CHN,2024-03-20,2024-08-05,82.1,151.1,36.0,,,,,,,,,,,,,
STUDY001,DM,STUDY001-SITE002-0023,0023,SITE002,32.0,YEARS,M,ASIAN,NOT HISPANIC OR LATINO,TREATMENT_10MG,CHN,2024-08-22,2025-01-14,63.5,174.6,20.8,,,,,,,,,,,,,
STUDY001,DM,STUDY001-SITE002-0024,0024,SITE001,25.0,YEARS,M,OTHER,HISPANIC OR LATINO,PLACEBO,CHN,2024-08-01,2024-12-02,74.0,153.6,31.4,,,,,,,,,,,,,
STUDY001,DM,STUDY001-SITE001-0025,0025,SITE002,31.0,YEARS,M,ASIAN,NOT HISPANIC OR LATINO,TREATMENT_20MG,CHN,2024-08-20,2024-11-04,101.4,156.2,41.6,,,,,,,,,,,,,
STUDY001,DM,STUDY001-SITE001-0026,0026,SITE003,40.0,YEARS,F,ASIAN,NOT HISPANIC OR LATINO,TREATMENT_10MG,CHN,2024-11-17,2025-03-25,67.6,172.9,22.6,,,,,,,,,,,,,
STUDY001,DM,STUDY001-SITE001-0027,0027,SITE003,74.0,YEARS,F,WHITE,NOT HISPANIC OR LATINO,PLACEBO,CHN,2024-08-04,2024-10-27,67.9,166.3,24.6,,,,,,,,,,,,,
STUDY001,DM,STUDY001-SITE003-0028,0028,SITE001,57.0,YEARS,M,ASIAN,NOT HISPANIC OR LATINO,PLACEBO,CHN,2024-06-08,2024-08-28,70.3,161.1,27.1,,,,,,,,,,,,,
STUDY001,DM,STUDY001-SITE003-0029,0029,SITE003,38.0,YEARS,F,ASIAN,HISPANIC OR LATINO,TREATMENT_10MG,CHN,2024-04-03,2024-09-23,75.3,168.7,26.5,,,,,,,,,,,,,
STUDY001,DM,STUDY001-SITE003-0030,0030,SITE003,33.0,YEARS,M,ASIAN,HISPANIC OR LATINO,TREATMENT_20MG,CHN,2024-09-03,2024-10-15,63.8,163.9,23.7,,,,,,,,,,,,,
STUDY001,DM,STUDY001-SITE01-9999,9999,SITE001,43.0,YEARS,M,ASIAN,NOT HISPANIC OR LATINO,PLACEBO,CHN,2024-12-17,2025-01-23,71.8,154.9,29.9,,,,,,,,,,,,,
STUDY001,AE,STUDY001-SITE001-0009,,,,,,,,,,,,,,,Headache,Pyrexia,Skin,MILD,N,NOT RELATED,RECOVERED/RESOLVED,2024-11-01,2024-10-01,,,,
STUDY001,AE,STUDY001-SITE001-0004,,,,,,,,,,,,,,,Vomiting,Headache,Gastrointestinal,CRITICAL,N,PROBABLE,RECOVERED/RESOLVED,2024-10-16,2024-11-02,,,,
STUDY001,AE,STUDY001-SITE001-0008,,,,,,,,,,,,,,,Pyrexia,Cough,Nervous system,MODERATE,N,DEFINITE,RECOVERED/RESOLVED,,2024-10-24,,,,
STUDY001,AE,STUDY001-SITE001-0016,,,,,,,,,,,,,,,Back pain,Insomnia,Metabolism,MILD,Y,NOT RELATED,FATAL,2024-06-26,2024-07-19,,,,
STUDY001,AE,STUDY001-SITE001-0017,,,,,,,,,,,,,,,Fatigue,Dizziness,General,MODERATE,N,NOT RELATED,RECOVERED/RESOLVED,2024-11-15,2024-12-10,,,,
STUDY001,AE,STUDY001-SITE001-0011,,,,,,,,,,,,,,,Diarrhea,Thrombocytopenia,Nervous system,MILD,N,PROBABLE,RECOVERING/RESOLVING,2024-12-22,2025-01-03,,,,
STUDY001,AE,STUDY001-SITE001-0003,,,,,,,,,,,,,,,Fatigue,Hypertension,Nervous system,MILD,Y,PROBABLE,RECOVERING/RESOLVING,2024-07-18,2024-08-13,,,,
STUDY001,AE,STUDY001-SITE001-0003,,,,,,,,,,,,,,,Leukopenia,Hypokalemia,Gastrointestinal,MILD,N,PROBABLE,UNKNOWN,2024-09-08,2024-09-19,,,,
STUDY001,AE,STUDY001-SITE001-0003,,,,,,,,,,,,,,,Back pain,Dizziness,Gastrointestinal,MODERATE,Y,POSSIBLE,RECOVERED/RESOLVED WITH SEQUELAE,2024-06-05,2024-06-08,,,,
STUDY001,AE,STUDY001-SITE001-0015,,,,,,,,,,,,,,,Leukopenia,Fatigue,Metabolism,MILD,N,NOT RELATED,UNKNOWN,2024-01-08,2024-02-05,,,,
STUDY001,AE,STUDY001-SITE001-0003,,,,,,,,,,,,,,,Fatigue,Anemia,General,MILD,N,POSSIBLE,FATAL,2024-03-05,2024-03-22,,,,
STUDY001,AE,STUDY001-SITE001-0018,,,,,,,,,,,,,,,Cough,Vomiting,Skin,SEVERE,Y,NOT RELATED,RECOVERED/RESOLVED WITH SEQUELAE,2024-09-03,2024-10-02,,,,
STUDY001,AE,STUDY001-SITE001-0017,,,,,,,,,,,,,,,Thrombocytopenia,Nausea,Skin,SEVERE,N,PROBABLE,RECOVERED/RESOLVED,2024-12-01,2024-12-24,,,,
STUDY001,AE,STUDY001-SITE001-0016,,,,,,,,,,,,,,,Arthralgia,Anemia,Gastrointestinal,SEVERE,N,NOT RELATED,UNKNOWN,2024-03-13,2024-04-10,,,,
STUDY001,AE,STUDY001-SITE001-0005,,,,,,,,,,,,,,,Rash,Hypokalemia,Metabolism,MILD,N,POSSIBLE,RECOVERED/RESOLVED,2024-06-24,2024-07-16,,,,
STUDY001,AE,STUDY001-SITE001-0012,,,,,,,,,,,,,,,Hypertension,Nausea,Blood,MILD,Y,NOT RELATED,RECOVERED/RESOLVED,2024-04-16,2024-04-21,,,,
STUDY001,AE,STUDY001-SITE001-0017,,,,,,,,,,,,,,,Constipation,Insomnia,Metabolism,MODERATE,N,POSSIBLE,RECOVERED/RESOLVED WITH SEQUELAE,2024-10-24,2024-10-26,,,,
STUDY001,AE,STUDY001-SITE001-0010,,,,,,,,,,,,,,,Diarrhea,AST increased,Skin,MILD,N,PROBABLE,RECOVERING/RESOLVING,2024-09-17,2024-10-09,,,,
STUDY001,AE,STUDY001-SITE001-0003,,,,,,,,,,,,,,,Dizziness,AST increased,General,MODERATE,N,NOT RELATED,NOT RECOVERED/NOT RESOLVED,2024-12-27,2025-01-02,,,,
STUDY001,AE,STUDY001-SITE001-0013,,,,,,,,,,,,,,,Back pain,Constipation,Gastrointestinal,MILD,Y,PROBABLE,FATAL,2024-07-25,2024-07-30,,,,
STUDY001,AE,STUDY001-SITE001-0005,,,,,,,,,,,,,,,AST increased,Dizziness,Blood,MODERATE,N,POSSIBLE,UNKNOWN,2024-09-03,2024-09-24,,,,
STUDY001,AE,STUDY001-SITE001-0002,,,,,,,,,,,,,,,Vomiting,ALT increased,Blood,MODERATE,N,NOT RELATED,RECOVERING/RESOLVING,2024-08-27,2024-09-25,,,,
STUDY001,AE,STUDY001-SITE001-0014,,,,,,,,,,,,,,,Pyrexia,Dizziness,Gastrointestinal,MILD,Y,NOT RELATED,FATAL,2024-11-13,2024-12-11,,,,
STUDY001,AE,STUDY001-SITE001-0020,,,,,,,,,,,,,,,Nausea,ALT increased,Metabolism,MILD,N,PROBABLE,UNKNOWN,2024-07-20,2024-07-25,,,,
STUDY001,AE,STUDY001-SITE001-0005,,,,,,,,,,,,,,,Diarrhea,Vomiting,Blood,MILD,N,NOT RELATED,RECOVERING/RESOLVING,2024-08-05,2024-08-08,,,,
STUDY001,AE,STUDY001-SITE001-0005,,,,,,,,,,,,,,,Back pain,Headache,Skin,MILD,N,PROBABLE,NOT RECOVERED/NOT RESOLVED,2024-04-19,2024-05-04,,,,
STUDY001,AE,STUDY001-SITE001-0004,,,,,,,,,,,,,,,Headache,Back pain,Blood,MILD,N,PROBABLE,UNKNOWN,2024-10-12,2024-10-20,,,,
STUDY001,AE,STUDY001-SITE001-0008,,,,,,,,,,,,,,,Dizziness,Fatigue,Skin,MODERATE,N,POSSIBLE,FATAL,2024-07-15,2024-07-17,,,,
STUDY001,AE,STUDY001-SITE001-0018,,,,,,,,,,,,,,,Hypokalemia,Hypertension,Metabolism,SEVERE,N,NOT RELATED,NOT RECOVERED/NOT RESOLVED,2024-10-15,2024-10-25,,,,
STUDY001,AE,STUDY001-SITE001-0016,,,,,,,,,,,,,,,Rash,AST increased,Metabolism,SEVERE,Y,POSSIBLE,RECOVERED/RESOLVED WITH SEQUELAE,2024-07-24,2024-08-21,,,,
STUDY001,AE,STUDY001-SITE001-0002,,,,,,,,,,,,,,,AST increased,Diarrhea,General,MILD,N,POSSIBLE,NOT RECOVERED/NOT RESOLVED,2024-03-16,2024-04-05,,,,
STUDY001,AE,STUDY001-SITE001-0015,,,,,,,,,,,,,,,Rash,ALT increased,Blood,SEVERE,N,POSSIBLE,NOT RECOVERED/NOT RESOLVED,2024-05-04,2024-05-20,,,,
STUDY001,AE,STUDY001-SITE001-0008,,,,,,,,,,,,,,,Fatigue,Back pain,Skin,MILD,N,NOT RELATED,FATAL,2024-11-08,2024-12-06,,,,
STUDY001,AE,STUDY001-SITE001-0017,,,,,,,,,,,,,,,Cough,Vomiting,General,MILD,Y,NOT RELATED,RECOVERED/RESOLVED WITH SEQUELAE,2024-01-02,2024-01-06,,,,
STUDY001,AE,STUDY001-SITE001-0003,,,,,,,,,,,,,,,Thrombocytopenia,ALT increased,Metabolism,SEVERE,N,PROBABLE,FATAL,2024-03-21,2024-04-17,,,,
STUDY001,AE,STUDY001-SITE001-0010,,,,,,,,,,,,,,,Thrombocytopenia,Dizziness,Nervous system,MILD,N,NOT RELATED,RECOVERED/RESOLVED WITH SEQUELAE,2024-01-15,2024-02-07,,,,
STUDY001,AE,STUDY001-SITE001-0020,,,,,,,,,,,,,,,Diarrhea,Leukopenia,General,MILD,N,POSSIBLE,UNKNOWN,2024-04-09,2024-05-06,,,,
STUDY001,AE,STUDY001-SITE001-0003,,,,,,,,,,,,,,,Hypertension,Pyrexia,Nervous system,SEVERE,N,PROBABLE,RECOVERED/RESOLVED WITH SEQUELAE,2024-04-13,2024-05-12,,,,
STUDY001,AE,STUDY001-SITE001-0015,,,,,,,,,,,,,,,Diarrhea,Arthralgia,Nervous system,DEATH,N,PROBABLE,RECOVERING/RESOLVING,2024-12-21,2025-01-15,,,,
STUDY001,AE,STUDY001-SITE001-0018,,,,,,,,,,,,,,,Constipation,Hypertension,Gastrointestinal,MILD,Y,POSSIBLE,RECOVERING/RESOLVING,2024-06-09,2024-06-25,,,,
STUDY001,AE,STUDY001-SITE001-0017,,,,,,,,,,,,,,,Arthralgia,Pyrexia,Metabolism,MILD,N,NOT RELATED,RECOVERED/RESOLVED WITH SEQUELAE,2024-03-12,2024-04-03,,,,
STUDY001,AE,STUDY001-SITE001-0016,,,,,,,,,,,,,,,Hypokalemia,Diarrhea,Metabolism,SEVERE,N,PROBABLE,UNKNOWN,2024-08-05,2024-08-23,,,,
STUDY001,AE,STUDY001-SITE001-0008,,,,,,,,,,,,,,,Dizziness,Hypokalemia,Blood,MILD,N,DEFINITE,RECOVERING/RESOLVING,2024-07-20,2024-08-07,,,,
STUDY001,AE,STUDY001-SITE001-0014,,,,,,,,,,,,,,,Hypokalemia,Thrombocytopenia,Metabolism,MILD,N,DEFINITE,RECOVERED/RESOLVED WITH SEQUELAE,2024-12-07,2024-12-25,,,,
STUDY001,AE,STUDY001-SITE001-0007,,,,,,,,,,,,,,,ALT increased,AST increased,Nervous system,SEVERE,N,NOT RELATED,NOT RECOVERED/NOT RESOLVED,2024-04-02,2024-04-14,,,,
STUDY001,AE,STUDY001-SITE001-0013,,,,,,,,,,,,,,,Vomiting,ALT increased,Nervous system,MILD,N,POSSIBLE,RECOVERED/RESOLVED WITH SEQUELAE,2024-03-21,2024-04-19,,,,
STUDY001,AE,STUDY001-SITE001-0019,,,,,,,,,,,,,,,Hypertension,Nausea,Skin,SEVERE,N,NOT RELATED,UNKNOWN,2024-04-14,2024-05-07,,,,
STUDY001,AE,STUDY001-SITE001-0001,,,,,,,,,,,,,,,Vomiting,Back pain,Nervous system,MILD,N,NOT RELATED,UNKNOWN,2024-01-23,2024-01-30,,,,
STUDY001,AE,STUDY001-SITE001-0003,,,,,,,,,,,,,,,Fatigue,Pyrexia,Metabolism,MILD,Y,POSSIBLE,RECOVERED/RESOLVED,2024-10-08,2024-11-03,,,,
STUDY001,AE,STUDY001-SITE001-0011,,,,,,,,,,,,,,,Thrombocytopenia,Thrombocytopenia,Gastrointestinal,MILD,N,NOT RELATED,RECOVERING/RESOLVING,2024-08-20,2024-09-15,,,,
STUDY001,AE,STUDY001-SITE001-0018,,,,,,,,,,,,,,,Pyrexia,Hypokalemia,Blood,MILD,N,DEFINITE,FATAL,2024-12-19,2025-01-08,,,,
STUDY001,AE,STUDY001-SITE001-0009,,,,,,,,,,,,,,,AST increased,Hypokalemia,Skin,SEVERE,Y,PROBABLE,NOT RECOVERED/NOT RESOLVED,2024-12-07,2024-12-11,,,,
STUDY001,AE,STUDY001-SITE001-0014,,,,,,,,,,,,,,,Vomiting,Rash,Blood,MODERATE,N,POSSIBLE,RECOVERED/RESOLVED WITH SEQUELAE,2024-02-17,2024-02-19,,,,
STUDY001,AE,STUDY001-SITE001-0011,,,,,,,,,,,,,,,Pyrexia,Back pain,General,MILD,N,NOT RELATED,RECOVERING/RESOLVING,2024-07-13,2024-08-04,,,,
STUDY001,AE,STUDY001-SITE001-0018,,,,,,,,,,,,,,,Fatigue,Hypertension,Metabolism,MILD,N,NOT RELATED,UNKNOWN,2024-09-04,2024-10-01,,,,
STUDY001,AE,STUDY001-SITE001-0005,,,,,,,,,,,,,,,Back pain,Thrombocytopenia,Nervous system,MILD,N,POSSIBLE,RECOVERING/RESOLVING,2024-11-21,2024-12-20,,,,
STUDY001,AE,STUDY001-SITE001-0019,,,,,,,,,,,,,,,Insomnia,Thrombocytopenia,Gastrointestinal,MILD,N,POSSIBLE,UNKNOWN,2024-01-06,2024-01-25,,,,
STUDY001,AE,STUDY001-SITE001-0009,,,,,,,,,,,,,,,Insomnia,ALT increased,Blood,SEVERE,Y,POSSIBLE,RECOVERED/RESOLVED,2024-02-04,2024-03-02,,,,
STUDY001,AE,STUDY001-SITE001-0020,,,,,,,,,,,,,,,Pyrexia,Fatigue,Nervous system,MODERATE,N,POSSIBLE,NOT RECOVERED/NOT RESOLVED,2024-01-07,2024-01-20,,,,
STUDY001,AE,STUDY001-SITE001-0015,,,,,,,,,,,,,,,AST increased,Dizziness,Skin,MODERATE,N,NOT RELATED,NOT RECOVERED/NOT RESOLVED,2024-01-09,2024-01-21,,,,
STUDY001,VS,STUDY001-SITE001-0010,,,,,,,,,,,,,,,,,,,,,,,,2024-10-07,Temperature,C,250.0
STUDY001,VS,STUDY001-SITE001-0017,,,,,,,,,,,,,,,,,,,,,,,,2024-08-01,Temperature,mmHg,45.0
STUDY001,VS,STUDY001-SITE001-0005,,,,,,,,,,,,,,,,,,,,,,,,2024-03-19,Temperature,mmHg,HIGH
STUDY001,VS,STUDY001-SITE001-0011,,,,,,,,,,,,,,,,,,,,,,,,2024-12-17,Systolic Blood Pressure,beats/min,112.0
STUDY001,VS,STUDY001-SITE001-0013,,,,,,,,,,,,,,,,,,,,,,,,2024-09-20,Diastolic Blood Pressure,breaths/min,55.0
STUDY001,VS,STUDY001-SITE001-0016,,,,,,,,,,,,,,,,,,,,,,,,2024-05-09,Diastolic Blood Pressure,mmHg,65.0
STUDY001,VS,STUDY001-SITE001-0015,,,,,,,,,,,,,,,,,,,,,,,,2024-02-13,Heart Rate,beats/min,67.0
STUDY001,VS,STUDY001-SITE001-0012,,,,,,,,,,,,,,,,,,,,,,,,2024-02-25,Systolic Blood Pressure,beats/min,131.0
STUDY001,VS,STUDY001-SITE001-0007,,,,,,,,,,,,,,,,,,,,,,,,2024-01-03,Diastolic Blood Pressure,C,74.0
STUDY001,VS,STUDY001-SITE001-0011,,,,,,,,,,,,,,,,,,,,,,,,2024-04-05,Systolic Blood Pressure,C,126.0
STUDY001,VS,STUDY001-SITE001-0002,,,,,,,,,,,,,,,,,,,,,,,,2024-08-13,Respiratory Rate,mmHg,14.0
STUDY001,VS,STUDY001-SITE001-0008,,,,,,,,,,,,,,,,,,,,,,,,2024-09-14,Respiratory Rate,mmHg,21.0
STUDY001,VS,STUDY001-SITE001-0020,,,,,,,,,,,,,,,,,,,,,,,,2024-02-14,Heart Rate,beats/min,53.0
STUDY001,VS,STUDY001-SITE001-0010,,,,,,,,,,,,,,,,,,,,,,,,2024-05-09,Respiratory Rate,beats/min,17.0
STUDY001,VS,STUDY001-SITE001-0016,,,,,,,,,,,,,,,,,,,,,,,,2024-11-21,Heart Rate,C,54.0
STUDY001,VS,STUDY001-SITE001-0002,,,,,,,,,,,,,,,,,,,,,,,,2024-07-04,Heart Rate,mmHg,71.0
STUDY001,VS,STUDY001-SITE001-0015,,,,,,,,,,,,,,,,,,,,,,,,2024-04-17,Temperature,mmHg,35.6
STUDY001,VS,STUDY001-SITE001-0008,,,,,,,,,,,,,,,,,,,,,,,,2024-05-16,Heart Rate,breaths/min,79.0
STUDY001,VS,STUDY001-SITE001-0014,,,,,,,,,,,,,,,,,,,,,,,,2024-03-11,Heart Rate,beats/min,77.0
STUDY001,VS,STUDY001-SITE001-0017,,,,,,,,,,,,,,,,,,,,,,,,2024-11-06,Respiratory Rate,C,20.0
STUDY001,VS,STUDY001-SITE001-0020,,,,,,,,,,,,,,,,,,,,,,,,2024-10-22,Respiratory Rate,breaths/min,15.0
STUDY001,VS,STUDY001-SITE001-0011,,,,,,,,,,,,,,,,,,,,,,,,2024-06-25,Diastolic Blood Pressure,mmHg,69.0
STUDY001,VS,STUDY001-SITE001-0007,,,,,,,,,,,,,,,,,,,,,,,,2024-09-21,Respiratory Rate,mmHg,19.0
STUDY001,VS,STUDY001-SITE001-0004,,,,,,,,,,,,,,,,,,,,,,,,2024-02-14,Respiratory Rate,C,15.0
STUDY001,VS,STUDY001-SITE001-0001,,,,,,,,,,,,,,,,,,,,,,,,2024-03-02,Temperature,mmHg,36.9
STUDY001,VS,STUDY001-SITE001-0014,,,,,,,,,,,,,,,,,,,,,,,,2024-09-12,Heart Rate,mmHg,71.0
STUDY001,VS,STUDY001-SITE001-0014,,,,,,,,,,,,,,,,,,,,,,,,2024-11-22,Respiratory Rate,beats/min,18.0
STUDY001,VS,STUDY001-SITE001-0019,,,,,,,,,,,,,,,,,,,,,,,,2024-09-22,Systolic Blood Pressure,breaths/min,104.0
STUDY001,VS,STUDY001-SITE001-0019,,,,,,,,,,,,,,,,,,,,,,,,2024-11-05,Respiratory Rate,mmHg,14.0
STUDY001,VS,STUDY001-SITE001-0001,,,,,,,,,,,,,,,,,,,,,,,,2024-07-05,Respiratory Rate,mmHg,14.0
STUDY001,VS,STUDY001-SITE001-0004,,,,,,,,,,,,,,,,,,,,,,,,2024-07-12,Diastolic Blood Pressure,mmHg,85.0
STUDY001,VS,STUDY001-SITE001-0004,,,,,,,,,,,,,,,,,,,,,,,,2024-12-17,Respiratory Rate,mmHg,16.0
STUDY001,VS,STUDY001-SITE001-0002,,,,,,,,,,,,,,,,,,,,,,,,2024-08-16,Temperature,mmHg,36.1
STUDY001,VS,STUDY001-SITE001-0009,,,,,,,,,,,,,,,,,,,,,,,,2024-11-25,Systolic Blood Pressure,beats/min,123.0
STUDY001,VS,STUDY001-SITE001-0001,,,,,,,,,,,,,,,,,,,,,,,,2024-05-05,Heart Rate,mmHg,76.0
STUDY001,VS,STUDY001-SITE001-0007,,,,,,,,,,,,,,,,,,,,,,,,2024-11-16,Diastolic Blood Pressure,beats/min,88.0
STUDY001,VS,STUDY001-SITE001-0015,,,,,,,,,,,,,,,,,,,,,,,,2024-01-24,Heart Rate,beats/min,74.0
STUDY001,VS,STUDY001-SITE001-0004,,,,,,,,,,,,,,,,,,,,,,,,2024-03-05,Systolic Blood Pressure,C,103.0
STUDY001,VS,STUDY001-SITE001-0013,,,,,,,,,,,,,,,,,,,,,,,,2024-09-27,Temperature,C,36.5
STUDY001,VS,STUDY001-SITE001-0005,,,,,,,,,,,,,,,,,,,,,,,,2024-10-21,Respiratory Rate,beats/min,22.0
STUDY001,VS,STUDY001-SITE001-0016,,,,,,,,,,,,,,,,,,,,,,,,2024-03-01,Temperature,C,37.1
STUDY001,VS,STUDY001-SITE001-0015,,,,,,,,,,,,,,,,,,,,,,,,2024-04-14,Systolic Blood Pressure,beats/min,131.0
STUDY001,VS,STUDY001-SITE001-0007,,,,,,,,,,,,,,,,,,,,,,,,2024-06-25,Temperature,breaths/min,36.7
STUDY001,VS,STUDY001-SITE001-0019,,,,,,,,,,,,,,,,,,,,,,,,2024-12-18,Diastolic Blood Pressure,C,94.0
STUDY001,VS,STUDY001-SITE001-0001,,,,,,,,,,,,,,,,,,,,,,,,2024-12-23,Systolic Blood Pressure,C,129.0
STUDY001,VS,STUDY001-SITE001-0005,,,,,,,,,,,,,,,,,,,,,,,,2024-06-11,Diastolic Blood Pressure,beats/min,81.0
STUDY001,VS,STUDY001-SITE001-0001,,,,,,,,,,,,,,,,,,,,,,,,2024-10-26,Temperature,beats/min,36.7
STUDY001,VS,STUDY001-SITE001-0005,,,,,,,,,,,,,,,,,,,,,,,,2024-04-24,Heart Rate,mmHg,70.0
STUDY001,VS,STUDY001-SITE001-0019,,,,,,,,,,,,,,,,,,,,,,,,2024-03-08,Temperature,mmHg,36.5
STUDY001,VS,STUDY001-SITE001-0002,,,,,,,,,,,,,,,,,,,,,,,,2024-10-13,Heart Rate,beats/min,81.0
STUDY001,VS,STUDY001-SITE001-0008,,,,,,,,,,,,,,,,,,,,,,,,2024-09-20,Diastolic Blood Pressure,mmHg,72.0
STUDY001,VS,STUDY001-SITE001-0002,,,,,,,,,,,,,,,,,,,,,,,,2024-09-25,Systolic Blood Pressure,beats/min,130.0
STUDY001,VS,STUDY001-SITE001-0002,,,,,,,,,,,,,,,,,,,,,,,,2024-11-03,Respiratory Rate,mmHg,15.0
STUDY001,VS,STUDY001-SITE001-0006,,,,,,,,,,,,,,,,,,,,,,,,2024-06-21,Temperature,mmHg,36.7
STUDY001,VS,STUDY001-SITE001-0009,,,,,,,,,,,,,,,,,,,,,,,,2024-02-26,Temperature,mmHg,36.5
STUDY001,VS,STUDY001-SITE001-0002,,,,,,,,,,,,,,,,,,,,,,,,2024-08-27,Respiratory Rate,mmHg,17.0
STUDY001,VS,STUDY001-SITE001-0002,,,,,,,,,,,,,,,,,,,,,,,,2024-02-22,Temperature,breaths/min,36.2
STUDY001,VS,STUDY001-SITE001-0018,,,,,,,,,,,,,,,,,,,,,,,,2024-03-11,Diastolic Blood Pressure,mmHg,77.0
STUDY001,VS,STUDY001-SITE001-0008,,,,,,,,,,,,,,,,,,,,,,,,2024-03-21,Temperature,breaths/min,36.8
STUDY001,VS,STUDY001-SITE001-0001,,,,,,,,,,,,,,,,,,,,,,,,2024-12-10,Respiratory Rate,beats/min,12.0
STUDY001,VS,STUDY001-SITE001-0014,,,,,,,,,,,,,,,,,,,,,,,,2024-09-12,Diastolic Blood Pressure,breaths/min,88.0
STUDY001,VS,STUDY001-SITE001-0019,,,,,,,,,,,,,,,,,,,,,,,,2024-01-11,Temperature,breaths/min,35.6
STUDY001,VS,STUDY001-SITE001-0007,,,,,,,,,,,,,,,,,,,,,,,,2024-09-06,Diastolic Blood Pressure,mmHg,69.0
STUDY001,VS,STUDY001-SITE001-0006,,,,,,,,,,,,,,,,,,,,,,,,2024-08-06,Respiratory Rate,beats/min,14.0
STUDY001,VS,STUDY001-SITE001-0012,,,,,,,,,,,,,,,,,,,,,,,,2024-06-16,Systolic Blood Pressure,C,110.0
STUDY001,VS,STUDY001-SITE001-0011,,,,,,,,,,,,,,,,,,,,,,,,2024-04-09,Diastolic Blood Pressure,beats/min,79.0
STUDY001,VS,STUDY001-SITE001-0015,,,,,,,,,,,,,,,,,,,,,,,,2024-12-01,Temperature,breaths/min,36.4
STUDY001,VS,STUDY001-SITE001-0002,,,,,,,,,,,,,,,,,,,,,,,,2024-05-21,Temperature,C,36.7
STUDY001,VS,STUDY001-SITE001-0014,,,,,,,,,,,,,,,,,,,,,,,,2024-09-21,Respiratory Rate,breaths/min,14.0
STUDY001,VS,STUDY001-SITE001-0016,,,,,,,,,,,,,,,,,,,,,,,,2024-05-07,Temperature,mmHg,36.7
STUDY001,VS,STUDY001-SITE001-0018,,,,,,,,,,,,,,,,,,,,,,,,2024-03-18,Respiratory Rate,mmHg,15.0
STUDY001,VS,STUDY001-SITE001-0018,,,,,,,,,,,,,,,,,,,,,,,,2024-10-12,Respiratory Rate,mmHg,17.0
STUDY001,VS,STUDY001-SITE001-0009,,,,,,,,,,,,,,,,,,,,,,,,2024-03-02,Heart Rate,mmHg,78.0
STUDY001,VS,STUDY001-SITE001-0020,,,,,,,,,,,,,,,,,,,,,,,,2024-01-01,Respiratory Rate,mmHg,11.0
STUDY001,VS,STUDY001-SITE001-0001,,,,,,,,,,,,,,,,,,,,,,,,2024-09-10,Respiratory Rate,C,16.0
STUDY001,VS,STUDY001-SITE001-0008,,,,,,,,,,,,,,,,,,,,,,,,2024-09-16,Respiratory Rate,breaths/min,16.0
STUDY001,VS,STUDY001-SITE001-0005,,,,,,,,,,,,,,,,,,,,,,,,2024-03-12,Diastolic Blood Pressure,mmHg,84.0
STUDY001,VS,STUDY001-SITE001-0020,,,,,,,,,,,,,,,,,,,,,,,,2024-06-15,Temperature,beats/min,36.7
STUDY001,VS,STUDY001-SITE001-0007,,,,,,,,,,,,,,,,,,,,,,,,2024-01-23,Respiratory Rate,mmHg,15.0
STUDY001,VS,STUDY001-SITE001-0015,,,,,,,,,,,,,,,,,,,,,,,,2024-07-22,Temperature,C,36.7
STUDY001,VS,STUDY001-SITE001-0001,,,,,,,,,,,,,,,,,,,,,,,,2024-09-09,Temperature,beats/min,37.0
STUDY001,VS,STUDY001-SITE001-0012,,,,,,,,,,,,,,,,,,,,,,,,2024-09-14,Heart Rate,C,61.0
STUDY001,VS,STUDY001-SITE001-0002,,,,,,,,,,,,,,,,,,,,,,,,2024-08-25,Systolic Blood Pressure,mmHg,101.0
STUDY001,VS,STUDY001-SITE001-0002,,,,,,,,,,,,,,,,,,,,,,,,2024-06-13,Systolic Blood Pressure,breaths/min,115.0
STUDY001,VS,STUDY001-SITE001-0013,,,,,,,,,,,,,,,,,,,,,,,,2024-08-08,Heart Rate,mmHg,73.0
STUDY001,VS,STUDY001-SITE001-0013,,,,,,,,,,,,,,,,,,,,,,,,2024-06-19,Systolic Blood Pressure,breaths/min,133.0
STUDY001,VS,STUDY001-SITE001-0011,,,,,,,,,,,,,,,,,,,,,,,,2024-03-16,Diastolic Blood Pressure,C,57.0
STUDY001,VS,STUDY001-SITE001-0014,,,,,,,,,,,,,,,,,,,,,,,,2024-01-13,Systolic Blood Pressure,C,141.0
STUDY001,VS,STUDY001-SITE001-0016,,,,,,,,,,,,,,,,,,,,,,,,2024-04-07,Systolic Blood Pressure,mmHg,125.0
STUDY001,VS,STUDY001-SITE001-0019,,,,,,,,,,,,,,,,,,,,,,,,2024-06-18,Respiratory Rate,breaths/min,19.0
STUDY001,VS,STUDY001-SITE001-0001,,,,,,,,,,,,,,,,,,,,,,,,2024-01-16,Systolic Blood Pressure,C,96.0
STUDY001,VS,STUDY001-SITE001-0016,,,,,,,,,,,,,,,,,,,,,,,,2024-02-01,Systolic Blood Pressure,mmHg,123.0
STUDY001,VS,STUDY001-SITE001-0011,,,,,,,,,,,,,,,,,,,,,,,,2024-11-13,Temperature,breaths/min,37.0
STUDY001,VS,STUDY001-SITE001-0010,,,,,,,,,,,,,,,,,,,,,,,,2024-09-26,Diastolic Blood Pressure,breaths/min,91.0
STUDY001,VS,STUDY001-SITE001-0011,,,,,,,,,,,,,,,,,,,,,,,,2024-03-10,Diastolic Blood Pressure,mmHg,93.0
STUDY001,VS,STUDY001-SITE001-0017,,,,,,,,,,,,,,,,,,,,,,,,2024-10-23,Temperature,breaths/min,36.6
STUDY001,VS,STUDY001-SITE001-0006,,,,,,,,,,,,,,,,,,,,,,,,2024-03-24,Respiratory Rate,mmHg,16.0
STUDY001,VS,STUDY001-SITE001-0005,,,,,,,,,,,,,,,,,,,,,,,,2024-01-11,Temperature,beats/min,37.5
STUDY001,VS,STUDY001-SITE001-0011,,,,,,,,,,,,,,,,,,,,,,,,2024-03-22,Respiratory Rate,breaths/min,20.0
STUDY001,VS,STUDY001-SITE001-0007,,,,,,,,,,,,,,,,,,,,,,,,2024-11-07,Heart Rate,mmHg,74.0
