{
  "study_id": "STUDY001",
  "domain": "DM",
  "start_time": "2026-06-11T15:28:01.161741",
  "source_file": "data/sample_dm_data.csv",
  "target_file": "E:\\Claude Code\\Projects for BeiGene AI Engineering Intern Interview\\Project 2_Automated Validation Tool for Clinical Data Pipelines\\data\\output\\dm_sdtm.xlsx",
  "steps": [
    {
      "step_name": "数据加载",
      "timestamp": "2026-06-11T15:28:01.166201",
      "action": "加载",
      "details": "从 data/sample_dm_data.csv 加载数据",
      "affected_rows": 31,
      "affected_columns": []
    },
    {
      "step_name": "变量映射检测",
      "timestamp": "2026-06-11T15:28:01.166201",
      "action": "检测",
      "details": "检测到 17 个变量映射, 0 个未映射",
      "affected_rows": 0,
      "affected_columns": [
        "STUDYID",
        "DOMAIN",
        "USUBJID",
        "SUBJID",
        "SITEID",
        "AGE",
        "AGEU",
        "SEX",
        "RACE",
        "ETHNIC",
        "ARM",
        "COUNTRY",
        "RFSTDTC",
        "RFENDTC",
        "WEIGHT",
        "HEIGHT",
        "BMI"
      ]
    },
    {
      "step_name": "日期格式化",
      "timestamp": "2026-06-11T15:28:01.168208",
      "action": "标准化",
      "details": "标准化日期列 'RFSTDTC' 为 %Y-%m-%d 格式",
      "affected_rows": 31,
      "affected_columns": [
        "RFSTDTC"
      ]
    },
    {
      "step_name": "日期格式化",
      "timestamp": "2026-06-11T15:28:01.170220",
      "action": "标准化",
      "details": "标准化日期列 'RFENDTC' 为 %Y-%m-%d 格式",
      "affected_rows": 31,
      "affected_columns": [
        "RFENDTC"
      ]
    },
    {
      "step_name": "数值精度标准化",
      "timestamp": "2026-06-11T15:28:01.171580",
      "action": "标准化",
      "details": "标准化 4 个数值列精度",
      "affected_rows": 0,
      "affected_columns": [
        "AGE",
        "WEIGHT",
        "HEIGHT",
        "BMI"
      ]
    },
    {
      "step_name": "结果输出",
      "timestamp": "2026-06-11T15:28:02.333039",
      "action": "输出",
      "details": "转换结果已保存至: E:\\Claude Code\\Projects for BeiGene AI Engineering Intern Interview\\Project 2_Automated Validation Tool for Clinical Data Pipelines\\data\\output\\dm_sdtm.xlsx",
      "affected_rows": 31,
      "affected_columns": []
    }
  ],
  "summary": {
    "study_id": "STUDY001",
    "domain": "DM",
    "start_time": "2026-06-11T15:28:01.161741",
    "end_time": "2026-06-11T15:28:02.335522",
    "duration_seconds": 1.17,
    "total_steps": 6,
    "action_summary": {
      "加载": 1,
      "检测": 1,
      "标准化": 3,
      "输出": 1
    }
  }
}