============================================================
临床数据格式转换日志
============================================================
研究编号: STUDY001
数据域:   DM
开始时间: 2026-06-11T15:28:01.161741
源文件:   data/sample_dm_data.csv
目标文件: E:\Claude Code\Projects for BeiGene AI Engineering Intern Interview\Project 2_Automated Validation Tool for Clinical Data Pipelines\data\output\dm_sdtm.xlsx
------------------------------------------------------------

[步骤 1] 数据加载
  时间:   2026-06-11T15:28:01.166201
  操作:   加载
  详情:   从 data/sample_dm_data.csv 加载数据
  影响:   31 行

[步骤 2] 变量映射检测
  时间:   2026-06-11T15:28:01.166201
  操作:   检测
  详情:   检测到 17 个变量映射, 0 个未映射
  列:     STUDYID, DOMAIN, USUBJID, SUBJID, SITEID, AGE, AGEU, SEX, RACE, ETHNIC, ARM, COUNTRY, RFSTDTC, RFENDTC, WEIGHT, HEIGHT, BMI

[步骤 3] 日期格式化
  时间:   2026-06-11T15:28:01.168208
  操作:   标准化
  详情:   标准化日期列 'RFSTDTC' 为 %Y-%m-%d 格式
  影响:   31 行
  列:     RFSTDTC

[步骤 4] 日期格式化
  时间:   2026-06-11T15:28:01.170220
  操作:   标准化
  详情:   标准化日期列 'RFENDTC' 为 %Y-%m-%d 格式
  影响:   31 行
  列:     RFENDTC

[步骤 5] 数值精度标准化
  时间:   2026-06-11T15:28:01.171580
  操作:   标准化
  详情:   标准化 4 个数值列精度
  列:     AGE, WEIGHT, HEIGHT, BMI

[步骤 6] 结果输出
  时间:   2026-06-11T15:28:02.333039
  操作:   输出
  详情:   转换结果已保存至: E:\Claude Code\Projects for BeiGene AI Engineering Intern Interview\Project 2_Automated Validation Tool for Clinical Data Pipelines\data\output\dm_sdtm.xlsx
  影响:   31 行

------------------------------------------------------------
转换完成 | 总步骤: 6 | 耗时: 1.17 秒
============================================================